"subj_code","condition","trial_type","machine","subj_code.1","desktop_conf","attent_conf","machine.1","contingency","structure_rating_prior","learning_yellow_correct_total","learning_pink_correct_total","learning_yellow_accuracy","learning_pink_accuracy","structure_rating_posterior","tech_issues","rt","tech_issues.1"
"0fZCirZlIWG3",5,"survey-html-form","opaque","0fZCirZlIWG3","1: I confirm","1: I confirm","opaque","05_05",50,8,8,1,1,6,NA,"12004",NA
"yzZ2vsIcYknG",5,"survey-html-form","opaque","yzZ2vsIcYknG","1: I confirm","1: I confirm","opaque","05_05",0,8,8,1,1,0,NA,"50109",NA
"EwvuNZsJN4ce",5,"survey-html-form","opaque","EwvuNZsJN4ce","1: I confirm","1: I confirm","opaque","05_05",82,8,8,1,1,82,NA,"8943",NA
"blkGQRvNzBnI",5,"survey-html-form","opaque","blkGQRvNzBnI","1: I confirm","1: I confirm","opaque","05_05",50,8,8,1,1,9,NA,"61149",NA
"dTmEQf0wBJno",5,"survey-html-form","opaque","dTmEQf0wBJno","1: I confirm","1: I confirm","opaque","05_05",68,8,8,1,1,53,"No problems to report.","29710","No problems to report."
"S1DimxTCzMOs",5,"survey-html-form","opaque","S1DimxTCzMOs","1: I confirm","1: I confirm","opaque","05_05",50,8,8,1,1,0,NA,"17441",NA
"TTHqFAkqoOxL",5,"survey-html-form","opaque","TTHqFAkqoOxL","1: I confirm","1: I confirm","opaque","05_05",50,8,8,1,1,50,NA,"30259",NA
"lbL8hLvcAWLo",5,"survey-html-form","opaque","lbL8hLvcAWLo","1: I confirm","1: I confirm","opaque","05_05",50,8,8,1,1,50,NA,"36871",NA
"lEM7KBrrLrjr",5,"survey-html-form","opaque","lEM7KBrrLrjr","1: I confirm","1: I confirm","opaque","05_05",40,8,8,1,1,24,NA,"25176",NA
"tC9txIBO5hLY",5,"survey-html-form","opaque","tC9txIBO5hLY","1: I confirm","1: I confirm","opaque","05_05",50,8,8,1,1,50,NA,"21099",NA
"Q4loJzwkQWyq",5,"survey-html-form","opaque","Q4loJzwkQWyq","1: I confirm","1: I confirm","opaque","05_05",94,8,8,1,1,49,NA,"16221",NA
"HeG7qZqmfQOg",5,"survey-html-form","opaque","HeG7qZqmfQOg","1: I confirm","1: I confirm","opaque","05_05",52,8,8,1,1,62,NA,"32434",NA
"zSO7cX4uCHLP",5,"survey-html-form","opaque","zSO7cX4uCHLP","1: I confirm","1: I confirm","opaque","05_05",90,8,8,1,1,24,"no technical errors or spelling mistakes that i came across.","26905","no technical errors or spelling mistakes that i came across."
"sVCqxmohoqUI",5,"survey-html-form","opaque","sVCqxmohoqUI","1: I confirm","1: I confirm","opaque","05_05",13,8,8,1,1,50,"None","10511","None"
"UW5uL8kMhsDA",5,"survey-html-form","opaque","UW5uL8kMhsDA","1: I confirm","1: I confirm","opaque","05_05",84,8,8,1,1,50,NA,"17646",NA
"WPMzm1g4OLLL",5,"survey-html-form","opaque","WPMzm1g4OLLL","1: I confirm","1: I confirm","opaque","05_05",50,8,7,1,0.875,50,NA,"12710",NA
"iMe7NqKw1xhm",5,"survey-html-form","opaque","iMe7NqKw1xhm","1: I confirm","1: I confirm","opaque","05_05",50,8,8,1,1,66,NA,"22820",NA
"JgNnMVYESR7g",5,"survey-html-form","opaque","JgNnMVYESR7g","1: I confirm","1: I confirm","opaque","05_05",18,8,8,1,1,6,"No errors","7998","No errors"
"6xU3p5xpR9Dz",5,"survey-html-form","opaque","6xU3p5xpR9Dz","1: I confirm","1: I confirm","opaque","05_05",85,8,8,1,1,50,NA,"22277",NA
"fjv0zr9VXvwK",5,"survey-html-form","opaque","fjv0zr9VXvwK","1: I confirm","1: I confirm","opaque","05_05",51,8,8,1,1,49,"None","16959","None"
"dBptRWibiDby",5,"survey-html-form","opaque","dBptRWibiDby","1: I confirm","1: I confirm","opaque","05_05",50,8,8,1,1,50,"No errors in general.","72411","No errors in general."
"nYc5lVgoz1np",5,"survey-html-form","opaque","nYc5lVgoz1np","1: I confirm","1: I confirm","opaque","05_05",22,8,8,1,1,9,NA,"11049",NA
"VIKxTMpMuc7w",5,"survey-html-form","opaque","VIKxTMpMuc7w","1: I confirm","1: I confirm","opaque","05_05",100,8,8,1,1,95,NA,"30817",NA
"MUtuCO35xfO5",5,"survey-html-form","opaque","MUtuCO35xfO5","1: I confirm","1: I confirm","opaque","05_05",50,8,7,1,0.875,50,NA,"10113",NA
"DEqmZl9RABDU",5,"survey-html-form","opaque","DEqmZl9RABDU","1: I confirm","1: I confirm","opaque","05_05",74,8,8,1,1,65,NA,"88914",NA
"8Sur0ptBM8lB",5,"survey-html-form","opaque","8Sur0ptBM8lB","1: I confirm","1: I confirm","opaque","05_05",49,8,8,1,1,0,"I did not notice anything","22574","I did not notice anything"
"gIx34vxXsUxY",5,"survey-html-form","opaque","gIx34vxXsUxY","1: I confirm","1: I confirm","opaque","05_05",1,8,8,1,1,50,NA,"9981",NA
"KceLSNqIHDeX",5,"survey-html-form","opaque","KceLSNqIHDeX","1: I confirm","1: I confirm","opaque","05_05",25,8,8,1,1,50,NA,"26054",NA
"98a5E5mI5AnF",5,"survey-html-form","opaque","98a5E5mI5AnF","1: I confirm","1: I confirm","opaque","05_05",50,8,8,1,1,69,"n/a","16741","n/a"
"P7fDAvdk24A2",5,"survey-html-form","opaque","P7fDAvdk24A2","1: I confirm","1: I confirm","opaque","05_05",75,8,8,1,1,0,"None ","14457","None "
"7WPUndZpomFj",5,"survey-html-form","opaque","7WPUndZpomFj","1: I confirm","1: I confirm","opaque","05_05",50,8,8,1,1,100,NA,"13695",NA
"wNWTVnhr2gvF",5,"survey-html-form","opaque","wNWTVnhr2gvF","1: I confirm","1: I confirm","opaque","05_05",3,8,8,1,1,0,NA,"24326",NA
"mIU8ochefvfl",5,"survey-html-form","opaque","mIU8ochefvfl","1: I confirm","1: I confirm","opaque","05_05",26,7,8,0.875,1,0,NA,"23380",NA
"4Yrv4ihZJDOk",5,"survey-html-form","opaque","4Yrv4ihZJDOk","1: I confirm","1: I confirm","opaque","05_05",94,7,8,0.875,1,94,NA,"25967",NA
"gV5ThvfZZvRR",5,"survey-html-form","opaque","gV5ThvfZZvRR","1: I confirm","1: I confirm","opaque","05_05",72,7,7,0.875,0.875,77,NA,"16118",NA
"Q5s6h7kgCEGs",5,"survey-html-form","opaque","Q5s6h7kgCEGs","1: I confirm","1: I confirm","opaque","05_05",50,8,8,1,1,50,NA,"20126",NA
"0fKJQIrbwpGE",5,"survey-html-form","opaque","0fKJQIrbwpGE","1: I confirm","1: I confirm","opaque","05_05",89,8,8,1,1,21,NA,"10421",NA
"uxrv4m3ssx3j",5,"survey-html-form","opaque","uxrv4m3ssx3j","1: I confirm","1: I confirm","opaque","05_05",3,8,8,1,1,3,NA,"12624",NA
"QTRGt8oX0uJE",5,"survey-html-form","opaque","QTRGt8oX0uJE","1: I confirm","1: I confirm","opaque","05_05",15,8,8,1,1,5,"No issues","20204","No issues"
"v4UvY6MWgAcM",5,"survey-html-form","opaque","v4UvY6MWgAcM","1: I confirm","1: I confirm","opaque","05_05",34,8,8,1,1,23,NA,"23940",NA
"u4ugLT8gBIsm",5,"survey-html-form","opaque","u4ugLT8gBIsm","1: I confirm","1: I confirm","opaque","05_05",66,8,7,1,0.875,57,"No problem experienced","23753","No problem experienced"
"EjxxlaJqTfHj",5,"survey-html-form","opaque","EjxxlaJqTfHj","1: I confirm","1: I confirm","opaque","05_05",50,8,8,1,1,50,"none","12274","none"
"zjuSceOkYwvG",5,"survey-html-form","opaque","zjuSceOkYwvG","1: I confirm","1: I confirm","opaque","05_05",99,8,8,1,1,99,NA,"9854",NA
"mbPZ1FJ6DuAJ",5,"survey-html-form","opaque","mbPZ1FJ6DuAJ","1: I confirm","1: I confirm","opaque","05_05",50,8,8,1,1,50,NA,"13037",NA
"JpAVFPtuhqtm",5,"survey-html-form","opaque","JpAVFPtuhqtm","1: I confirm","1: I confirm","opaque","05_05",37,8,8,1,1,60,"There was no technical error.","7687","There was no technical error."
"xgisxqG8m407",5,"survey-html-form","opaque","xgisxqG8m407","1: I confirm","1: I confirm","opaque","05_05",68,8,8,1,1,13,"No errors as far as I'm aware. ","17495","No errors as far as I'm aware. "
"pZXUx5ZzFZ9b",5,"survey-html-form","opaque","pZXUx5ZzFZ9b","1: I confirm","1: I confirm","opaque","05_05",50,8,8,1,1,37,"none","13718","none"
"9XgNSo6vBSEA",5,"survey-html-form","opaque","9XgNSo6vBSEA","1: I confirm","1: I confirm","opaque","05_05",50,8,8,1,1,50,NA,"21878",NA
"nUyqpjBc5r6D",5,"survey-html-form","opaque","nUyqpjBc5r6D","1: I confirm","1: I confirm","opaque","05_05",10,8,8,1,1,0,"no errors !","9428","no errors !"
"poa5Xwewa9Py",5,"survey-html-form","opaque","poa5Xwewa9Py","1: I confirm","1: I confirm","opaque","05_05",80,8,8,1,1,0,"All worked fine :)","37599","All worked fine :)"
"qwgZ7oJcrseu",9,"survey-html-form","opaque","qwgZ7oJcrseu","1: I confirm","1: I confirm","opaque","0_0",50,8,8,1,1,30,NA,"28731",NA
"sZiLOb1egJj5",9,"survey-html-form","opaque","sZiLOb1egJj5","1: I confirm","1: I confirm","opaque","0_0",79,8,8,1,1,1,"all good","39036","all good"
"lK6yI7zGlkmW",9,"survey-html-form","opaque","lK6yI7zGlkmW","1: I confirm","1: I confirm","opaque","0_0",50,8,8,1,1,50,NA,"51731",NA
"a1EyT9uhDNQc",9,"survey-html-form","opaque","a1EyT9uhDNQc","1: I confirm","1: I confirm","opaque","0_0",50,8,8,1,1,12,NA,"27816",NA
"6F8XwVQewGsQ",9,"survey-html-form","opaque","6F8XwVQewGsQ","1: I confirm","1: I confirm","opaque","0_0",88,7,7,0.875,0.875,50,NA,"47619",NA
"g8EB0tqLNuAf",9,"survey-html-form","opaque","g8EB0tqLNuAf","1: I confirm","1: I confirm","opaque","0_0",40,8,8,1,1,15,NA,"39480",NA
"QysTEji95FrD",9,"survey-html-form","opaque","QysTEji95FrD","1: I confirm","1: I confirm","opaque","0_0",50,8,8,1,1,50,"No errors, I felt certain that you cannot identify the cause of the pink ball rolling minus perhaps by sound or time but just through before and after observation it would be uncertain.","15996","No errors, I felt certain that you cannot identify the cause of the pink ball rolling minus perhaps by sound or time but just through before and after observation it would be uncertain."
"yuQ4X5RpQ00A",9,"survey-html-form","opaque","yuQ4X5RpQ00A","1: I confirm","1: I confirm","opaque","0_0",45,8,8,1,1,35,NA,"23161",NA
"XrHyYLCJ5oF0",9,"survey-html-form","opaque","XrHyYLCJ5oF0","1: I confirm","1: I confirm","opaque","0_0",40,8,7,1,0.875,50,NA,"8990",NA
"D4URS94curaw",9,"survey-html-form","opaque","D4URS94curaw","1: I confirm","1: I confirm","opaque","0_0",50,8,8,1,1,5,NA,"26266",NA
"KEI4A5UAkGJX",9,"survey-html-form","opaque","KEI4A5UAkGJX","1: I confirm","1: I confirm","opaque","0_0",50,8,8,1,1,15,NA,"41300",NA
"Jhux7fPkDuGP",9,"survey-html-form","opaque","Jhux7fPkDuGP","1: I confirm","1: I confirm","opaque","0_0",92,8,8,1,1,50,NA,"30850",NA
"fnB06BrCbgHv",9,"survey-html-form","opaque","fnB06BrCbgHv","1: I confirm","1: I confirm","opaque","0_0",40,8,8,1,1,30,NA,"19628",NA
"MPZeHR0waC1D",9,"survey-html-form","opaque","MPZeHR0waC1D","1: I confirm","1: I confirm","opaque","0_0",14,8,8,1,1,11,NA,"8411",NA
"Zr56AF830pKP",9,"survey-html-form","opaque","Zr56AF830pKP","1: I confirm","1: I confirm","opaque","0_0",76,8,8,1,1,46,"no errors","14811","no errors"
"1I2wD2epC2y7",9,"survey-html-form","opaque","1I2wD2epC2y7","1: I confirm","1: I confirm","opaque","0_0",45,8,8,1,1,30,NA,"60127",NA
"HPFZUzaLo0nk",9,"survey-html-form","opaque","HPFZUzaLo0nk","1: I confirm","1: I confirm","opaque","0_0",80,8,8,1,1,20,NA,"26383",NA
"xMFiOp8XiGep",9,"survey-html-form","opaque","xMFiOp8XiGep","1: I confirm","1: I confirm","opaque","0_0",50,8,8,1,1,50,"none","12916","none"
"TsFgVhI7qZV3",9,"survey-html-form","opaque","TsFgVhI7qZV3","1: I confirm","1: I confirm","opaque","0_0",49,8,8,1,1,4,"none","14601","none"
"SR4liwxQj4qH",9,"survey-html-form","opaque","SR4liwxQj4qH","1: I confirm","1: I confirm","opaque","0_0",27,7,7,0.875,0.875,4,NA,"20985",NA
"LJL6c59WaomH",9,"survey-html-form","opaque","LJL6c59WaomH","1: I confirm","1: I confirm","opaque","0_0",50,8,8,1,1,50,"no errors","16007","no errors"
"ZsI0aNNoUvnZ",9,"survey-html-form","opaque","ZsI0aNNoUvnZ","1: I confirm","1: I confirm","opaque","0_0",93,8,8,1,1,50,"No, everything went perfectly.","17373","No, everything went perfectly."
"WnyMijcoogmQ",9,"survey-html-form","opaque","WnyMijcoogmQ","1: I confirm","1: I confirm","opaque","0_0",56,8,8,1,1,30,NA,"14068",NA
"82eammDjcdf4",9,"survey-html-form","opaque","82eammDjcdf4","1: I confirm","1: I confirm","opaque","0_0",50,8,8,1,1,20,"n/a","17761","n/a"
"fVrz9I0zOSh0",9,"survey-html-form","opaque","fVrz9I0zOSh0","1: I confirm","1: I confirm","opaque","0_0",59,8,8,1,1,37,NA,"19194",NA
"QMnPFVHdE3Fu",9,"survey-html-form","opaque","QMnPFVHdE3Fu","1: I confirm","1: I confirm","opaque","0_0",50,8,8,1,1,50,NA,"11305",NA
"mA2q0hgPmbBA",9,"survey-html-form","opaque","mA2q0hgPmbBA","1: I confirm","1: I confirm","opaque","0_0",50,8,8,1,1,33,NA,"22749",NA
"zhoyApMIhXaG",9,"survey-html-form","opaque","zhoyApMIhXaG","1: I confirm","1: I confirm","opaque","0_0",50,8,8,1,1,0,NA,"31070",NA
"hWKYa9yFsXGI",9,"survey-html-form","opaque","hWKYa9yFsXGI","1: I confirm","1: I confirm","opaque","0_0",50,7,7,0.875,0.875,50,NA,"31935",NA
"rpPqHeN5mSDb",9,"survey-html-form","opaque","rpPqHeN5mSDb","1: I confirm","1: I confirm","opaque","0_0",50,8,8,1,1,51,NA,"12158",NA
"l1qddEVey6rQ",9,"survey-html-form","opaque","l1qddEVey6rQ","1: I confirm","1: I confirm","opaque","0_0",100,7,7,0.875,0.875,0,NA,"59398",NA
"xDfm3akuAjOt",9,"survey-html-form","opaque","xDfm3akuAjOt","1: I confirm","1: I confirm","opaque","0_0",79,8,8,1,1,2,"No errors, only that the pink ball never rolled, lol!","26360","No errors, only that the pink ball never rolled, lol!"
"Q6osZ3pFI4h9",9,"survey-html-form","opaque","Q6osZ3pFI4h9","1: I confirm","1: I confirm","opaque","0_0",50,8,8,1,1,20,"I did not see any errors.","90575","I did not see any errors."
"yvUYdZlW0X8Q",9,"survey-html-form","opaque","yvUYdZlW0X8Q","1: I confirm","1: I confirm","opaque","0_0",58,8,8,1,1,43,"none","25314","none"
"SIs93P9UnBHO",9,"survey-html-form","opaque","SIs93P9UnBHO","1: I confirm","1: I confirm","opaque","0_0",52,8,8,1,1,53,"There were no errors but the pink ball did not roll throughout","18394","There were no errors but the pink ball did not roll throughout"
"sl0fAzQPHYi7",9,"survey-html-form","opaque","sl0fAzQPHYi7","1: I confirm","1: I confirm","opaque","0_0",50,8,8,1,1,40,NA,"53613",NA
"BhnDmxZ4Kvn2",9,"survey-html-form","opaque","BhnDmxZ4Kvn2","1: I confirm","1: I confirm","opaque","0_0",72,7,7,0.875,0.875,14,"No issues","22348","No issues"
"Xvk4k3BsoWgp",9,"survey-html-form","opaque","Xvk4k3BsoWgp","1: I confirm","1: I confirm","opaque","0_0",28,8,8,1,1,50,NA,"17717",NA
"m8jb6qgNXT97",9,"survey-html-form","opaque","m8jb6qgNXT97","1: I confirm","1: I confirm","opaque","0_0",5,8,8,1,1,5,NA,"20023",NA
"zp2HeH8h6nft",9,"survey-html-form","opaque","zp2HeH8h6nft","1: I confirm","1: I confirm","opaque","0_0",62,8,7,1,0.875,49,NA,"27781",NA
"akTuPZr1K7wL",9,"survey-html-form","opaque","akTuPZr1K7wL","1: I confirm","1: I confirm","opaque","0_0",50,8,8,1,1,0,"none","13577","none"
"GRsY4GBGEExt",9,"survey-html-form","opaque","GRsY4GBGEExt","1: I confirm","1: I confirm","opaque","0_0",76,8,8,1,1,75,"I saw no errors. Good luck with your study.","15718","I saw no errors. Good luck with your study."
"YvHUIBNg8urs",9,"survey-html-form","opaque","YvHUIBNg8urs","1: I confirm","1: I confirm","opaque","0_0",67,8,8,1,1,20,NA,"36176",NA
"F6JOihb9CQgq",9,"survey-html-form","opaque","F6JOihb9CQgq","1: I confirm","1: I confirm","opaque","0_0",90,8,8,1,1,90,NA,"35217",NA
"hVHHR4F3PwI1",9,"survey-html-form","opaque","hVHHR4F3PwI1","1: I confirm","1: I confirm","opaque","0_0",76,8,8,1,1,50,NA,"10842",NA
"gOrApIbbykpK",9,"survey-html-form","opaque","gOrApIbbykpK","1: I confirm","1: I confirm","opaque","0_0",50,8,8,1,1,50,"there were no errors","13396","there were no errors"
"iDhoVz1anDgK",9,"survey-html-form","opaque","iDhoVz1anDgK","1: I confirm","1: I confirm","opaque","0_0",30,8,8,1,1,10,NA,"15908",NA
"DUoaeGpJyy3R",9,"survey-html-form","opaque","DUoaeGpJyy3R","1: I confirm","1: I confirm","opaque","0_0",22,8,8,1,1,56,"na","18401","na"
"vzBLNyFWWMER",9,"survey-html-form","opaque","vzBLNyFWWMER","1: I confirm","1: I confirm","opaque","0_0",50,7,8,0.875,1,50,"I did not come across any errors. The pink ball never rolled or was I mistaken?","13846","I did not come across any errors. The pink ball never rolled or was I mistaken?"
"idd9MWDjFbb8",9,"survey-html-form","opaque","idd9MWDjFbb8","1: I confirm","1: I confirm","opaque","0_0",50,8,8,1,1,50,NA,"18980",NA
"1WX1vlWXoNo1",1,"survey-html-form","opaque","1WX1vlWXoNo1","1: I confirm","1: I confirm","opaque","1_1",50,8,8,1,1,50,"N/A","32897","N/A"
"Ps1yg4JJcxId",1,"survey-html-form","opaque","Ps1yg4JJcxId","1: I confirm","1: I confirm","opaque","1_1",50,8,8,1,1,49,NA,"11145",NA
"K4YPZlxpK6KG",1,"survey-html-form","opaque","K4YPZlxpK6KG","1: I confirm","1: I confirm","opaque","1_1",0,8,8,1,1,0,NA,"16081",NA
"BblQiFIR8qPo",1,"survey-html-form","opaque","BblQiFIR8qPo","1: I confirm","1: I confirm","opaque","1_1",53,8,8,1,1,54,NA,"8176",NA
"ZKqHan3IX0rq",1,"survey-html-form","opaque","ZKqHan3IX0rq","1: I confirm","1: I confirm","opaque","1_1",50,8,8,1,1,50,"No errors","9692","No errors"
"F1mHf4ApJxHz",1,"survey-html-form","opaque","F1mHf4ApJxHz","1: I confirm","1: I confirm","opaque","1_1",100,8,8,1,1,100,"n/a","21950","n/a"
"37rT3KZQHffm",1,"survey-html-form","opaque","37rT3KZQHffm","1: I confirm","1: I confirm","opaque","1_1",12,8,8,1,1,82,"none at all","16630","none at all"
"T8Az9G2ACSz0",1,"survey-html-form","opaque","T8Az9G2ACSz0","1: I confirm","1: I confirm","opaque","1_1",64,8,8,1,1,69,NA,"10213",NA
"2kiOyBaOxLKV",1,"survey-html-form","opaque","2kiOyBaOxLKV","1: I confirm","1: I confirm","opaque","1_1",0,8,8,1,1,0,"n/a ","30665","n/a "
"9KQaHVxvjl7P",1,"survey-html-form","opaque","9KQaHVxvjl7P","1: I confirm","1: I confirm","opaque","1_1",36,7,8,0.875,1,43,NA,"29814",NA
"WoUpYVsIT71z",1,"survey-html-form","opaque","WoUpYVsIT71z","1: I confirm","1: I confirm","opaque","1_1",50,8,8,1,1,100,NA,"24525",NA
"kbqaVShzmZTN",1,"survey-html-form","opaque","kbqaVShzmZTN","1: I confirm","1: I confirm","opaque","1_1",29,7,8,0.875,1,64,NA,"10100",NA
"3CFdNMEzxxlL",1,"survey-html-form","opaque","3CFdNMEzxxlL","1: I confirm","1: I confirm","opaque","1_1",72,8,8,1,1,100,"No errors observed","14231","No errors observed"
"7EwuxkNkJJYF",1,"survey-html-form","opaque","7EwuxkNkJJYF","1: I confirm","1: I confirm","opaque","1_1",75,8,8,1,1,76,"No","9179","No"
"IHW1ijKXEIY9",1,"survey-html-form","opaque","IHW1ijKXEIY9","1: I confirm","1: I confirm","opaque","1_1",50,7,8,0.875,1,87,"no","23033","no"
"z02nCenQJi7X",1,"survey-html-form","opaque","z02nCenQJi7X","1: I confirm","1: I confirm","opaque","1_1",66,8,8,1,1,0,NA,"9165",NA
"0se6Ky6EzngO",1,"survey-html-form","opaque","0se6Ky6EzngO","1: I confirm","1: I confirm","opaque","1_1",50,8,8,1,1,50,NA,"28394",NA
"zcBPFU41hfNb",1,"survey-html-form","opaque","zcBPFU41hfNb","1: I confirm","1: I confirm","opaque","1_1",56,8,8,1,1,78,NA,"22631",NA
"f91ECr0Tv6Ff",1,"survey-html-form","opaque","f91ECr0Tv6Ff","1: I confirm","1: I confirm","opaque","1_1",50,8,8,1,1,50,NA,"17794",NA
"BAvIFlCV8x8h",1,"survey-html-form","opaque","BAvIFlCV8x8h","1: I confirm","1: I confirm","opaque","1_1",50,7,8,0.875,1,50,"The pink ball always seemed to be rolling","21931","The pink ball always seemed to be rolling"
"3nJipS5weXOE",1,"survey-html-form","opaque","3nJipS5weXOE","1: I confirm","1: I confirm","opaque","1_1",50,8,8,1,1,75,NA,"21260",NA
"Gnt75WuUvCWt",1,"survey-html-form","opaque","Gnt75WuUvCWt","1: I confirm","1: I confirm","opaque","1_1",50,8,8,1,1,1,NA,"71561",NA
"p0eLQuJujkg8",1,"survey-html-form","opaque","p0eLQuJujkg8","1: I confirm","1: I confirm","opaque","1_1",50,8,8,1,1,50,"N/A","18025","N/A"
"hqlVC7yLypfB",1,"survey-html-form","opaque","hqlVC7yLypfB","1: I confirm","1: I confirm","opaque","1_1",50,8,8,1,1,50,"N/A","19116","N/A"
"lhD9xDmacNxt",1,"survey-html-form","opaque","lhD9xDmacNxt","1: I confirm","1: I confirm","opaque","1_1",78,8,8,1,1,95,"No errors or technical issues encountered while completing the study. Thank you for the opportunity to participate.","37190","No errors or technical issues encountered while completing the study. Thank you for the opportunity to participate."
"rqv9nMum2iuS",1,"survey-html-form","opaque","rqv9nMum2iuS","1: I confirm","1: I confirm","opaque","1_1",75,8,8,1,1,75,NA,"22197",NA
"2dufpVtmZBoU",1,"survey-html-form","opaque","2dufpVtmZBoU","1: I confirm","1: I confirm","opaque","1_1",50,7,8,0.875,1,50,"None","18853","None"
"jfPPhcnHQK0e",1,"survey-html-form","opaque","jfPPhcnHQK0e","1: I confirm","1: I confirm","opaque","1_1",50,8,8,1,1,50,NA,"8744",NA
"VFuAV5exz4IB",1,"survey-html-form","opaque","VFuAV5exz4IB","1: I confirm","1: I confirm","opaque","1_1",50,7,8,0.875,1,100,NA,"13614",NA
"bFcREeWMNjbC",1,"survey-html-form","opaque","bFcREeWMNjbC","1: I confirm","1: I confirm","opaque","1_1",51,8,8,1,1,50,NA,"16928",NA
"lqSkKseOfOXb",1,"survey-html-form","opaque","lqSkKseOfOXb","1: I confirm","1: I confirm","opaque","1_1",59,8,8,1,1,91,NA,"18908",NA
"pU3KDymot8yr",1,"survey-html-form","opaque","pU3KDymot8yr","1: I confirm","1: I confirm","opaque","1_1",5,8,8,1,1,28,NA,"19525",NA
"ZYRB6w17PP2A",1,"survey-html-form","opaque","ZYRB6w17PP2A","1: I confirm","1: I confirm","opaque","1_1",9,8,8,1,1,9,NA,"18912",NA
"HOwujnykvcRP",1,"survey-html-form","opaque","HOwujnykvcRP","1: I confirm","1: I confirm","opaque","1_1",50,8,8,1,1,50,NA,"14849",NA
"EVKYD5XhlvlT",1,"survey-html-form","opaque","EVKYD5XhlvlT","1: I confirm","1: I confirm","opaque","1_1",40,7,7,0.875,0.875,25,"none","166363","none"
"LgxzGwBP92S3",1,"survey-html-form","opaque","LgxzGwBP92S3","1: I confirm","1: I confirm","opaque","1_1",85,8,8,1,1,85,"None","30964","None"
"o3nzKQCifgav",1,"survey-html-form","opaque","o3nzKQCifgav","1: I confirm","1: I confirm","opaque","1_1",50,8,8,1,1,50,"No errors spotted","17560","No errors spotted"
"msRFcyJnWn01",1,"survey-html-form","opaque","msRFcyJnWn01","1: I confirm","1: I confirm","opaque","1_1",50,8,8,1,1,50,"There is no way to say whether the yellow ball caused the pink ball to roll as the mechanism is completely obscured.","20407","There is no way to say whether the yellow ball caused the pink ball to roll as the mechanism is completely obscured."
"Binm0unXe0zy",1,"survey-html-form","opaque","Binm0unXe0zy","1: I confirm","1: I confirm","opaque","1_1",58,8,8,1,1,93,NA,"10160",NA
"Q3NASumfGvg7",1,"survey-html-form","opaque","Q3NASumfGvg7","1: I confirm","1: I confirm","opaque","1_1",70,8,8,1,1,10,NA,"21169",NA
"jvyTxxzkXb5c",1,"survey-html-form","opaque","jvyTxxzkXb5c","1: I confirm","1: I confirm","opaque","1_1",90,8,8,1,1,87,NA,"14949",NA
"oLlP9bpKktZ4",1,"survey-html-form","opaque","oLlP9bpKktZ4","1: I confirm","1: I confirm","opaque","1_1",85,8,8,1,1,50,"none","30998","none"
"mHSuZ7jnnA6q",1,"survey-html-form","opaque","mHSuZ7jnnA6q","1: I confirm","1: I confirm","opaque","1_1",50,8,8,1,1,50,NA,"10810",NA
"Wmhv4OIheepl",1,"survey-html-form","opaque","Wmhv4OIheepl","1: I confirm","1: I confirm","opaque","1_1",25,8,8,1,1,40,NA,"9650",NA
"wKdumocNnH4f",1,"survey-html-form","opaque","wKdumocNnH4f","1: I confirm","1: I confirm","opaque","1_1",50,7,8,0.875,1,72,"No Errors that i Noticed","13691","No Errors that i Noticed"
"HEX18NRfPEIZ",1,"survey-html-form","opaque","HEX18NRfPEIZ","1: I confirm","1: I confirm","opaque","1_1",0,8,8,1,1,51,"n/a","12222","n/a"
"lC2aB66fLqKr",1,"survey-html-form","opaque","lC2aB66fLqKr","1: I confirm","1: I confirm","opaque","1_1",50,8,8,1,1,50,"I did not see any errors","17848","I did not see any errors"
"uTS9w0maNTB6",1,"survey-html-form","opaque","uTS9w0maNTB6","1: I confirm","1: I confirm","opaque","1_1",0,8,8,1,1,0,"No issues","27449","No issues"
"bwmK6KuUNWK4",1,"survey-html-form","opaque","bwmK6KuUNWK4","1: I confirm","1: I confirm","opaque","1_1",61,7,7,0.875,0.875,37,"none!","9135","none!"
"85q4uPb0fv3c",1,"survey-html-form","opaque","85q4uPb0fv3c","1: I confirm","1: I confirm","opaque","1_1",10,7,8,0.875,1,65,NA,"7509",NA
"Ef4Gy0uXdjQB",6,"survey-html-form","transp","Ef4Gy0uXdjQB","1: I confirm","1: I confirm","transp","05_05",23,8,7,1,0.875,23,NA,"33928",NA
"X1j0aKmi9jq7",6,"survey-html-form","transp","X1j0aKmi9jq7","1: I confirm","1: I confirm","transp","05_05",0,8,8,1,1,0,NA,"24849",NA
"qZcDJmHVp417",6,"survey-html-form","transp","qZcDJmHVp417","1: I confirm","1: I confirm","transp","05_05",0,8,8,1,1,0,NA,"22110",NA
"khjcDZbmUyRv",6,"survey-html-form","transp","khjcDZbmUyRv","1: I confirm","1: I confirm","transp","05_05",0,8,8,1,1,0,"No errors","22215","No errors"
"wBalsMRvUGLh",6,"survey-html-form","transp","wBalsMRvUGLh","1: I confirm","1: I confirm","transp","05_05",0,8,8,1,1,0,NA,"15081",NA
"zxwFOaABOhSj",6,"survey-html-form","transp","zxwFOaABOhSj","1: I confirm","1: I confirm","transp","05_05",0,8,8,1,1,0,NA,"38056",NA
"mtgKpksISYFK",6,"survey-html-form","transp","mtgKpksISYFK","1: I confirm","1: I confirm","transp","05_05",0,7,8,0.875,1,0,NA,"28243",NA
"FTQUW84mn6PK",6,"survey-html-form","transp","FTQUW84mn6PK","1: I confirm","1: I confirm","transp","05_05",0,8,8,1,1,0,"None","34568","None"
"dHjfXMAnzNHO",6,"survey-html-form","transp","dHjfXMAnzNHO","1: I confirm","1: I confirm","transp","05_05",0,8,8,1,1,0,"No errors. I genuinely enjoyed participating and thought it was a challenging, yet fun exercise. Great job!","10212","No errors. I genuinely enjoyed participating and thought it was a challenging, yet fun exercise. Great job!"
"DhQDRANtvnmw",6,"survey-html-form","transp","DhQDRANtvnmw","1: I confirm","1: I confirm","transp","05_05",22,8,8,1,1,0,NA,"24612",NA
"2N8DtY4WjcJg",6,"survey-html-form","transp","2N8DtY4WjcJg","1: I confirm","1: I confirm","transp","05_05",87,8,8,1,1,16,NA,"14101",NA
"50o31j4TX9wY",6,"survey-html-form","transp","50o31j4TX9wY","1: I confirm","1: I confirm","transp","05_05",0,8,8,1,1,0,NA,"6342",NA
"E3SJw5CK5j8F",6,"survey-html-form","transp","E3SJw5CK5j8F","1: I confirm","1: I confirm","transp","05_05",0,8,8,1,1,0,NA,"26893",NA
"9IqVNYpc5V6Q",6,"survey-html-form","transp","9IqVNYpc5V6Q","1: I confirm","1: I confirm","transp","05_05",58,7,7,0.875,0.875,61,"all ok","21240","all ok"
"JTRjJhPYaIfC",6,"survey-html-form","transp","JTRjJhPYaIfC","1: I confirm","1: I confirm","transp","05_05",0,8,8,1,1,100,NA,"14401",NA
"iwIFIsGu8FPD",6,"survey-html-form","transp","iwIFIsGu8FPD","1: I confirm","1: I confirm","transp","05_05",82,7,7,0.875,0.875,2,NA,"27146",NA
"tqDL57RYnhR7",6,"survey-html-form","transp","tqDL57RYnhR7","1: I confirm","1: I confirm","transp","05_05",0,8,8,1,1,0,"No issues","22093","No issues"
"WtYeDMiV1tvQ",6,"survey-html-form","transp","WtYeDMiV1tvQ","1: I confirm","1: I confirm","transp","05_05",83,8,8,1,1,85,NA,"5394",NA
"b8T9sJ7tgJNk",6,"survey-html-form","transp","b8T9sJ7tgJNk","1: I confirm","1: I confirm","transp","05_05",20,8,8,1,1,0,NA,"35845",NA
"OrqHEV6Rrejf",6,"survey-html-form","transp","OrqHEV6Rrejf","1: I confirm","1: I confirm","transp","05_05",0,8,8,1,1,0,NA,"24444",NA
"2mVtBnjayRLt",6,"survey-html-form","transp","2mVtBnjayRLt","1: I confirm","1: I confirm","transp","05_05",22,8,8,1,1,45,"None","23551","None"
"d55OCDkDgeGe",6,"survey-html-form","transp","d55OCDkDgeGe","1: I confirm","1: I confirm","transp","05_05",7,8,8,1,1,13,"no notable errors","64581","no notable errors"
"AAvV4FjeH2uy",6,"survey-html-form","transp","AAvV4FjeH2uy","1: I confirm","1: I confirm","transp","05_05",50,7,8,0.875,1,50,"None","8322","None"
"6Lxqh34NGSXE",6,"survey-html-form","transp","6Lxqh34NGSXE","1: I confirm","1: I confirm","transp","05_05",10,8,8,1,1,49,NA,"10919",NA
"vA3Em89iQNg0",6,"survey-html-form","transp","vA3Em89iQNg0","1: I confirm","1: I confirm","transp","05_05",0,8,8,1,1,0,"Nothing except for the fact that as I understood it the yellow ball could never affect the pink ball because there was what looked like a brick wall in the way which would have stopped the yellow ball ever coming into contact with the pink ball.","15456","Nothing except for the fact that as I understood it the yellow ball could never affect the pink ball because there was what looked like a brick wall in the way which would have stopped the yellow ball ever coming into contact with the pink ball."
"ALkQcvoLvM6J",6,"survey-html-form","transp","ALkQcvoLvM6J","1: I confirm","1: I confirm","transp","05_05",0,8,8,1,1,91,NA,"14863",NA
"COe3lSr7NMoc",6,"survey-html-form","transp","COe3lSr7NMoc","1: I confirm","1: I confirm","transp","05_05",0,8,8,1,1,0,NA,"9706",NA
"nCmFh3B76Gzk",6,"survey-html-form","transp","nCmFh3B76Gzk","1: I confirm","1: I confirm","transp","05_05",0,8,8,1,1,2,NA,"33218",NA
"Ts7olG8atiyl",6,"survey-html-form","transp","Ts7olG8atiyl","1: I confirm","1: I confirm","transp","05_05",0,8,8,1,1,0,"N/A","34095","N/A"
"cAdZeMS1PWyh",6,"survey-html-form","transp","cAdZeMS1PWyh","1: I confirm","1: I confirm","transp","05_05",10,8,8,1,1,10,"I was not looking for errors specifically. I was focused primarily on following through with the task. I did not notice any errors in my attempt at the task.","39849","I was not looking for errors specifically. I was focused primarily on following through with the task. I did not notice any errors in my attempt at the task."
"k88EG79sfjUq",6,"survey-html-form","transp","k88EG79sfjUq","1: I confirm","1: I confirm","transp","05_05",0,8,8,1,1,0,"No issues.","48534","No issues."
"vxQxOskPZYeQ",6,"survey-html-form","transp","vxQxOskPZYeQ","1: I confirm","1: I confirm","transp","05_05",0,7,7,0.875,0.875,10,"I didn't notice any errors","21559","I didn't notice any errors"
"MA9vFrXnSF3l",6,"survey-html-form","transp","MA9vFrXnSF3l","1: I confirm","1: I confirm","transp","05_05",28,7,7,0.875,0.875,22,"I did not notice any errors and was able to navigate the study.","19604","I did not notice any errors and was able to navigate the study."
"Ld1fWcDlhvJT",6,"survey-html-form","transp","Ld1fWcDlhvJT","1: I confirm","1: I confirm","transp","05_05",36,8,7,1,0.875,25,NA,"34948",NA
"kDVOI9sQCKKF",6,"survey-html-form","transp","kDVOI9sQCKKF","1: I confirm","1: I confirm","transp","05_05",77,8,8,1,1,100,NA,"40819",NA
"bUrmq4xKkIp6",6,"survey-html-form","transp","bUrmq4xKkIp6","1: I confirm","1: I confirm","transp","05_05",14,7,8,0.875,1,19,"none","11960","none"
"jwHXwORQH3pl",6,"survey-html-form","transp","jwHXwORQH3pl","1: I confirm","1: I confirm","transp","05_05",0,8,8,1,1,0,NA,"17604",NA
"OHsKmoIqTpVe",6,"survey-html-form","transp","OHsKmoIqTpVe","1: I confirm","1: I confirm","transp","05_05",4,8,8,1,1,8,NA,"23284",NA
"6nPbXHV2kwP4",6,"survey-html-form","transp","6nPbXHV2kwP4","1: I confirm","1: I confirm","transp","05_05",5,7,8,0.875,1,6,NA,"39190",NA
"yrMXYW8RCqVO",6,"survey-html-form","transp","yrMXYW8RCqVO","1: I confirm","1: I confirm","transp","05_05",24,8,7,1,0.875,35,"None","12601","None"
"vDyckDKvDsqn",6,"survey-html-form","transp","vDyckDKvDsqn","1: I confirm","1: I confirm","transp","05_05",5,8,8,1,1,7,"no errors I noticed","53446","no errors I noticed"
"q7KhapViHnzV",6,"survey-html-form","transp","q7KhapViHnzV","1: I confirm","1: I confirm","transp","05_05",90,8,7,1,0.875,90,NA,"55139",NA
"YAelVwzrPxv0",6,"survey-html-form","transp","YAelVwzrPxv0","1: I confirm","1: I confirm","transp","05_05",82,8,8,1,1,12,NA,"18856",NA
"6YINnl9d1hfG",6,"survey-html-form","transp","6YINnl9d1hfG","1: I confirm","1: I confirm","transp","05_05",16,8,8,1,1,50,"no issues no further comments","34349","no issues no further comments"
"ze7ltyUtVxoj",6,"survey-html-form","transp","ze7ltyUtVxoj","1: I confirm","1: I confirm","transp","05_05",0,8,8,1,1,9,NA,"34698",NA
"0bVmHTs5jwCZ",6,"survey-html-form","transp","0bVmHTs5jwCZ","1: I confirm","1: I confirm","transp","05_05",0,8,8,1,1,0,NA,"28450",NA
"01etHvfLl6LX",6,"survey-html-form","transp","01etHvfLl6LX","1: I confirm","1: I confirm","transp","05_05",88,8,7,1,0.875,19,"n/a","15154","n/a"
"0iOspsrjza3y",6,"survey-html-form","transp","0iOspsrjza3y","1: I confirm","1: I confirm","transp","05_05",22,8,8,1,1,30,"none","30959","none"
"ZiL2gMZRKuQ2",6,"survey-html-form","transp","ZiL2gMZRKuQ2","1: I confirm","1: I confirm","transp","05_05",0,8,8,1,1,0,NA,"11659",NA
"iRYrl63U74Gu",6,"survey-html-form","transp","iRYrl63U74Gu","1: I confirm","1: I confirm","transp","05_05",15,8,8,1,1,0,NA,"9404",NA
"kaPBEIeUozyW",10,"survey-html-form","transp","kaPBEIeUozyW","1: I confirm","1: I confirm","transp","0_0",29,8,8,1,1,14,"none","28359","none"
"PuIz4J9BIt5L",10,"survey-html-form","transp","PuIz4J9BIt5L","1: I confirm","1: I confirm","transp","0_0",0,7,7,0.875,0.875,0,NA,"13607",NA
"eVN4xF2kaUfE",10,"survey-html-form","transp","eVN4xF2kaUfE","1: I confirm","1: I confirm","transp","0_0",10,8,8,1,1,0,NA,"25382",NA
"imRcqg1CciBJ",10,"survey-html-form","transp","imRcqg1CciBJ","1: I confirm","1: I confirm","transp","0_0",10,8,8,1,1,0,NA,"81591",NA
"5E0TuWBSfWYO",10,"survey-html-form","transp","5E0TuWBSfWYO","1: I confirm","1: I confirm","transp","0_0",21,8,8,1,1,2,NA,"59424",NA
"457qxb8OecNy",10,"survey-html-form","transp","457qxb8OecNy","1: I confirm","1: I confirm","transp","0_0",0,7,8,0.875,1,3,NA,"29714",NA
"NUBYz1vwVqaX",10,"survey-html-form","transp","NUBYz1vwVqaX","1: I confirm","1: I confirm","transp","0_0",0,8,8,1,1,0,NA,"30711",NA
"X5qQObzV5sGA",10,"survey-html-form","transp","X5qQObzV5sGA","1: I confirm","1: I confirm","transp","0_0",3,8,8,1,1,3,"No issues but slightly confused as to the purpose of the study!","32120","No issues but slightly confused as to the purpose of the study!"
"OX3qCwLE89ke",10,"survey-html-form","transp","OX3qCwLE89ke","1: I confirm","1: I confirm","transp","0_0",0,8,8,1,1,0,NA,"9781",NA
"KIJRedrVnT5P",10,"survey-html-form","transp","KIJRedrVnT5P","1: I confirm","1: I confirm","transp","0_0",1,8,8,1,1,0,NA,"16358",NA
"StqxggX8LVTE",10,"survey-html-form","transp","StqxggX8LVTE","1: I confirm","1: I confirm","transp","0_0",0,7,8,0.875,1,0,NA,"15923",NA
"SPC3S2ViTLyr",10,"survey-html-form","transp","SPC3S2ViTLyr","1: I confirm","1: I confirm","transp","0_0",0,8,8,1,1,0,"n/a","12530","n/a"
"48l1IbyIbKlH",10,"survey-html-form","transp","48l1IbyIbKlH","1: I confirm","1: I confirm","transp","0_0",0,8,8,1,1,0,"None","9609","None"
"dkbT63U23Vt8",10,"survey-html-form","transp","dkbT63U23Vt8","1: I confirm","1: I confirm","transp","0_0",50,8,8,1,1,1,"No issues to report","123160","No issues to report"
"j7HjVNamFqN6",10,"survey-html-form","transp","j7HjVNamFqN6","1: I confirm","1: I confirm","transp","0_0",0,8,8,1,1,0,"none","23452","none"
"CODIyTgmyJdh",10,"survey-html-form","transp","CODIyTgmyJdh","1: I confirm","1: I confirm","transp","0_0",5,8,8,1,1,0,NA,"22186",NA
"88rMWtUnzmeS",10,"survey-html-form","transp","88rMWtUnzmeS","1: I confirm","1: I confirm","transp","0_0",0,8,8,1,1,0,"Everything looked OK to me.","10796","Everything looked OK to me."
"uzXzVaIxVvTy",10,"survey-html-form","transp","uzXzVaIxVvTy","1: I confirm","1: I confirm","transp","0_0",0,8,8,1,1,0,"none","13634","none"
"xriFgRwpxD7M",10,"survey-html-form","transp","xriFgRwpxD7M","1: I confirm","1: I confirm","transp","0_0",5,7,8,0.875,1,2,"none","18905","none"
"iD2YGR6CXL0W",10,"survey-html-form","transp","iD2YGR6CXL0W","1: I confirm","1: I confirm","transp","0_0",5,8,8,1,1,0,NA,"18293",NA
"j68Xh6EWoZkO",10,"survey-html-form","transp","j68Xh6EWoZkO","1: I confirm","1: I confirm","transp","0_0",13,8,8,1,1,9,NA,"8890",NA
"gdEkzLMHlawG",10,"survey-html-form","transp","gdEkzLMHlawG","1: I confirm","1: I confirm","transp","0_0",0,8,8,1,1,0,"none","17353","none"
"Eaqan3vA4XYm",10,"survey-html-form","transp","Eaqan3vA4XYm","1: I confirm","1: I confirm","transp","0_0",0,8,8,1,1,0,NA,"6457",NA
"u3ttbD4DjUEj",10,"survey-html-form","transp","u3ttbD4DjUEj","1: I confirm","1: I confirm","transp","0_0",0,8,8,1,1,0,NA,"6441",NA
"IjMPQ6owCZeI",10,"survey-html-form","transp","IjMPQ6owCZeI","1: I confirm","1: I confirm","transp","0_0",0,8,8,1,1,0,NA,"16419",NA
"wUG9X3dHnJyt",10,"survey-html-form","transp","wUG9X3dHnJyt","1: I confirm","1: I confirm","transp","0_0",2,7,7,0.875,0.875,0,NA,"15911",NA
"0TBoyumFcF5Y",10,"survey-html-form","transp","0TBoyumFcF5Y","1: I confirm","1: I confirm","transp","0_0",0,8,8,1,1,0,"none","11518","none"
"akM7ir28y2YL",10,"survey-html-form","transp","akM7ir28y2YL","1: I confirm","1: I confirm","transp","0_0",0,8,8,1,1,0,"None","16138","None"
"q4JR1vfChsTb",10,"survey-html-form","transp","q4JR1vfChsTb","1: I confirm","1: I confirm","transp","0_0",9,8,8,1,1,5,NA,"15590",NA
"5HZSN0RcaSpL",10,"survey-html-form","transp","5HZSN0RcaSpL","1: I confirm","1: I confirm","transp","0_0",0,8,8,1,1,0,NA,"12838",NA
"vmDPs4mD98aC",10,"survey-html-form","transp","vmDPs4mD98aC","1: I confirm","1: I confirm","transp","0_0",26,8,8,1,1,8,"Did not spot any errors.","35516","Did not spot any errors."
"6Se7AEnPU2Sk",10,"survey-html-form","transp","6Se7AEnPU2Sk","1: I confirm","1: I confirm","transp","0_0",4,7,7,0.875,0.875,0,"All functioned as expected","40909","All functioned as expected"
"4dFszk8ZM0gN",10,"survey-html-form","transp","4dFszk8ZM0gN","1: I confirm","1: I confirm","transp","0_0",0,8,8,1,1,0,"none","10049","none"
"onA0kOKC1apC",10,"survey-html-form","transp","onA0kOKC1apC","1: I confirm","1: I confirm","transp","0_0",0,8,8,1,1,0,NA,"19993",NA
"gd6aO9Dkr4KX",10,"survey-html-form","transp","gd6aO9Dkr4KX","1: I confirm","1: I confirm","transp","0_0",1,8,8,1,1,1,NA,"19021",NA
"mBAtLxTGACz2",10,"survey-html-form","transp","mBAtLxTGACz2","1: I confirm","1: I confirm","transp","0_0",21,8,8,1,1,16,NA,"27287",NA
"oJJpRK3O23Tb",10,"survey-html-form","transp","oJJpRK3O23Tb","1: I confirm","1: I confirm","transp","0_0",60,7,8,0.875,1,41,"The instructions and context were clear and concise, hence the reason I did not experience any issues.","29555","The instructions and context were clear and concise, hence the reason I did not experience any issues."
"D1dpW155KLN7",10,"survey-html-form","transp","D1dpW155KLN7","1: I confirm","1: I confirm","transp","0_0",6,8,8,1,1,11,"none","22841","none"
"Fnr9CqUw7uzw",10,"survey-html-form","transp","Fnr9CqUw7uzw","1: I confirm","1: I confirm","transp","0_0",0,7,7,0.875,0.875,0,NA,"20422",NA
"qayg3moviyBT",10,"survey-html-form","transp","qayg3moviyBT","1: I confirm","1: I confirm","transp","0_0",0,8,8,1,1,0,NA,"14914",NA
"o1E7NNssMCea",10,"survey-html-form","transp","o1E7NNssMCea","1: I confirm","1: I confirm","transp","0_0",0,8,7,1,0.875,0,NA,"7108",NA
"5yGiVKnL8s4u",10,"survey-html-form","transp","5yGiVKnL8s4u","1: I confirm","1: I confirm","transp","0_0",0,8,8,1,1,0,"I found no errors.","15215","I found no errors."
"lhnCPtaVMETy",10,"survey-html-form","transp","lhnCPtaVMETy","1: I confirm","1: I confirm","transp","0_0",0,8,8,1,1,0,NA,"26182",NA
"GWfardFXZBzs",10,"survey-html-form","transp","GWfardFXZBzs","1: I confirm","1: I confirm","transp","0_0",0,8,8,1,1,0,NA,"11247",NA
"nzNesYHfJ9HK",10,"survey-html-form","transp","nzNesYHfJ9HK","1: I confirm","1: I confirm","transp","0_0",0,8,8,1,1,0,NA,"16381",NA
"P7yuOOnDrDsR",10,"survey-html-form","transp","P7yuOOnDrDsR","1: I confirm","1: I confirm","transp","0_0",8,8,8,1,1,0,NA,"32837",NA
"VDjRliWglwHE",10,"survey-html-form","transp","VDjRliWglwHE","1: I confirm","1: I confirm","transp","0_0",50,8,7,1,0.875,32,"All good, thanks!","10212","All good, thanks!"
"Yjpf724vUCms",10,"survey-html-form","transp","Yjpf724vUCms","1: I confirm","1: I confirm","transp","0_0",65,7,8,0.875,1,33,NA,"38477",NA
"dPcCc1aQPINj",10,"survey-html-form","transp","dPcCc1aQPINj","1: I confirm","1: I confirm","transp","0_0",0,8,8,1,1,0,"None","10076","None"
"Vvt8pNBt71Kq",10,"survey-html-form","transp","Vvt8pNBt71Kq","1: I confirm","1: I confirm","transp","0_0",0,8,8,1,1,0,"none","6846","none"
"W1zJiUEgOgRC",2,"survey-html-form","transp","W1zJiUEgOgRC","1: I confirm","1: I confirm","transp","1_1",0,8,8,1,1,7,"No errors from what i can see","14396","No errors from what i can see"
"1OnifMQPF06M",2,"survey-html-form","transp","1OnifMQPF06M","1: I confirm","1: I confirm","transp","1_1",75,8,8,1,1,100,"Very interesting and fun! Good luck with the study!","37583","Very interesting and fun! Good luck with the study!"
"9XVbWbrTIsyS",2,"survey-html-form","transp","9XVbWbrTIsyS","1: I confirm","1: I confirm","transp","1_1",0,7,8,0.875,1,6,NA,"12710",NA
"DoZu1Yj8vqe3",2,"survey-html-form","transp","DoZu1Yj8vqe3","1: I confirm","1: I confirm","transp","1_1",4,8,8,1,1,73,NA,"17311",NA
"i8jhWrMdcEju",2,"survey-html-form","transp","i8jhWrMdcEju","1: I confirm","1: I confirm","transp","1_1",5,8,8,1,1,1,NA,"16387",NA
"8GBqewXTXRDq",2,"survey-html-form","transp","8GBqewXTXRDq","1: I confirm","1: I confirm","transp","1_1",0,8,8,1,1,0,"No errors experienced.","22026","No errors experienced."
"Iqbc1y12qyOC",2,"survey-html-form","transp","Iqbc1y12qyOC","1: I confirm","1: I confirm","transp","1_1",0,7,8,0.875,1,0,NA,"38900",NA
"xDCepqiR5zeh",2,"survey-html-form","transp","xDCepqiR5zeh","1: I confirm","1: I confirm","transp","1_1",95,7,8,0.875,1,91,"No problem","64909","No problem"
"29SbFQRCAZxo",2,"survey-html-form","transp","29SbFQRCAZxo","1: I confirm","1: I confirm","transp","1_1",0,8,8,1,1,0,"There were no issues. Thanks.","26069","There were no issues. Thanks."
"HnVpakJ1kg8j",2,"survey-html-form","transp","HnVpakJ1kg8j","1: I confirm","1: I confirm","transp","1_1",10,8,8,1,1,50,"none","28553","none"
"t3gYhWlxorrE",2,"survey-html-form","transp","t3gYhWlxorrE","1: I confirm","1: I confirm","transp","1_1",50,8,8,1,1,60,"None!","31680","None!"
"6gWGnpWTyz4K",2,"survey-html-form","transp","6gWGnpWTyz4K","1: I confirm","1: I confirm","transp","1_1",46,8,8,1,1,50,NA,"36253",NA
"1IahGDka4XfE",2,"survey-html-form","transp","1IahGDka4XfE","1: I confirm","1: I confirm","transp","1_1",6,8,8,1,1,0,"Everything seemed clear to me","23752","Everything seemed clear to me"
"cqObw6UPVj80",2,"survey-html-form","transp","cqObw6UPVj80","1: I confirm","1: I confirm","transp","1_1",6,8,7,1,0.875,0,"none","17374","none"
"R0xRLNnXCJ3c",2,"survey-html-form","transp","R0xRLNnXCJ3c","1: I confirm","1: I confirm","transp","1_1",0,8,8,1,1,0,"no problems or issues encountered","47297","no problems or issues encountered"
"1Cn7yvBkndrQ",2,"survey-html-form","transp","1Cn7yvBkndrQ","1: I confirm","1: I confirm","transp","1_1",0,8,8,1,1,0,"None","40085","None"
"J7ihcYmrLQb3",2,"survey-html-form","transp","J7ihcYmrLQb3","1: I confirm","1: I confirm","transp","1_1",40,8,8,1,1,50,NA,"10732",NA
"flAGCuDp50ab",2,"survey-html-form","transp","flAGCuDp50ab","1: I confirm","1: I confirm","transp","1_1",2,8,8,1,1,24,NA,"10596",NA
"W02fMR5koPl8",2,"survey-html-form","transp","W02fMR5koPl8","1: I confirm","1: I confirm","transp","1_1",50,8,8,1,1,50,"None","11993","None"
"9iHVnlBtcEGn",2,"survey-html-form","transp","9iHVnlBtcEGn","1: I confirm","1: I confirm","transp","1_1",50,8,8,1,1,50,NA,"14830",NA
"jIyFWux3LtnA",2,"survey-html-form","transp","jIyFWux3LtnA","1: I confirm","1: I confirm","transp","1_1",50,8,8,1,1,0,NA,"18981",NA
"qO448j2jwIw6",2,"survey-html-form","transp","qO448j2jwIw6","1: I confirm","1: I confirm","transp","1_1",95,7,8,0.875,1,85,NA,"40763",NA
"LE7dQTzSVKO0",2,"survey-html-form","transp","LE7dQTzSVKO0","1: I confirm","1: I confirm","transp","1_1",0,8,8,1,1,0,NA,"18894",NA
"xv6L9oBE7y2Y",2,"survey-html-form","transp","xv6L9oBE7y2Y","1: I confirm","1: I confirm","transp","1_1",0,8,8,1,1,0,"NONE","27969","NONE"
"ENgWafHSGgNt",2,"survey-html-form","transp","ENgWafHSGgNt","1: I confirm","1: I confirm","transp","1_1",19,7,7,0.875,0.875,60,NA,"51487",NA
"DhzDQSazQrOZ",2,"survey-html-form","transp","DhzDQSazQrOZ","1: I confirm","1: I confirm","transp","1_1",0,8,8,1,1,0,"Nothing specifically stood out, but the sentence above has a full stop after ""etc"" and then another outside the bracket :)","24597","Nothing specifically stood out, but the sentence above has a full stop after ""etc"" and then another outside the bracket :)"
"XFzihPPK8jP5",2,"survey-html-form","transp","XFzihPPK8jP5","1: I confirm","1: I confirm","transp","1_1",0,8,8,1,1,0,NA,"21935",NA
"OV90msW2KRbz",2,"survey-html-form","transp","OV90msW2KRbz","1: I confirm","1: I confirm","transp","1_1",0,8,8,1,1,0,NA,"15550",NA
"mrpEuaaOVPkH",2,"survey-html-form","transp","mrpEuaaOVPkH","1: I confirm","1: I confirm","transp","1_1",33,8,8,1,1,58,NA,"20447",NA
"bBQdSrqKLTEk",2,"survey-html-form","transp","bBQdSrqKLTEk","1: I confirm","1: I confirm","transp","1_1",1,8,8,1,1,0,NA,"37328",NA
"Uxy2Jal86Uhh",2,"survey-html-form","transp","Uxy2Jal86Uhh","1: I confirm","1: I confirm","transp","1_1",0,8,8,1,1,0,"No errors. All clear and well-presented. Thank you.","8192","No errors. All clear and well-presented. Thank you."
"lNhlAb9a31jg",2,"survey-html-form","transp","lNhlAb9a31jg","1: I confirm","1: I confirm","transp","1_1",0,8,8,1,1,0,NA,"27944",NA
"Y5ZLYZbF0PAd",2,"survey-html-form","transp","Y5ZLYZbF0PAd","1: I confirm","1: I confirm","transp","1_1",0,8,8,1,1,0,NA,"16364",NA
"OnPmGWVkDtsI",2,"survey-html-form","transp","OnPmGWVkDtsI","1: I confirm","1: I confirm","transp","1_1",0,8,8,1,1,0,NA,"21517",NA
"ezrGpboJe2yU",2,"survey-html-form","transp","ezrGpboJe2yU","1: I confirm","1: I confirm","transp","1_1",0,8,8,1,1,50,NA,"16143",NA
"5mXPlpa3QEpm",2,"survey-html-form","transp","5mXPlpa3QEpm","1: I confirm","1: I confirm","transp","1_1",8,8,8,1,1,25,"There were no errors encountered in the study","66413","There were no errors encountered in the study"
"a2FlpwJvk09u",2,"survey-html-form","transp","a2FlpwJvk09u","1: I confirm","1: I confirm","transp","1_1",1,8,8,1,1,1,NA,"17679",NA
"KKYyxbxB0N8K",2,"survey-html-form","transp","KKYyxbxB0N8K","1: I confirm","1: I confirm","transp","1_1",0,8,8,1,1,0,"All good, thanks.","32285","All good, thanks."
"zy81LLwKU4LP",2,"survey-html-form","transp","zy81LLwKU4LP","1: I confirm","1: I confirm","transp","1_1",0,8,8,1,1,0,"None.","28368","None."
"ka10r6cwpOmN",2,"survey-html-form","transp","ka10r6cwpOmN","1: I confirm","1: I confirm","transp","1_1",0,8,8,1,1,10,"No errors that I noticed.","38274","No errors that I noticed."
"u0NLNmmi21eL",2,"survey-html-form","transp","u0NLNmmi21eL","1: I confirm","1: I confirm","transp","1_1",3,8,8,1,1,50,NA,"20234",NA
"63gOsbbegofY",2,"survey-html-form","transp","63gOsbbegofY","1: I confirm","1: I confirm","transp","1_1",35,8,8,1,1,45,NA,"10503",NA
"nlrHAR6nd49A",2,"survey-html-form","transp","nlrHAR6nd49A","1: I confirm","1: I confirm","transp","1_1",0,8,8,1,1,0,"none","35760","none"
"ZcfkbN2IRQzB",2,"survey-html-form","transp","ZcfkbN2IRQzB","1: I confirm","1: I confirm","transp","1_1",0,8,8,1,1,0,NA,"21786",NA
"2DWmdiWlXIwb",2,"survey-html-form","transp","2DWmdiWlXIwb","1: I confirm","1: I confirm","transp","1_1",0,8,8,1,1,0,NA,"16845",NA
"204gCYPGvTdh",2,"survey-html-form","transp","204gCYPGvTdh","1: I confirm","1: I confirm","transp","1_1",26,8,8,1,1,8,NA,"11419",NA
"zC2aRbnyGbwm",2,"survey-html-form","transp","zC2aRbnyGbwm","1: I confirm","1: I confirm","transp","1_1",6,8,8,1,1,0,NA,"29030",NA
"tDk2yeJzQfRf",2,"survey-html-form","transp","tDk2yeJzQfRf","1: I confirm","1: I confirm","transp","1_1",7,7,8,0.875,1,8,"no errors","25054","no errors"
"40uYiM2CdOvx",2,"survey-html-form","transp","40uYiM2CdOvx","1: I confirm","1: I confirm","transp","1_1",0,8,8,1,1,0,NA,"13036",NA
"bhuBmtP2Wx3o",2,"survey-html-form","transp","bhuBmtP2Wx3o","1: I confirm","1: I confirm","transp","1_1",0,8,8,1,1,0,"I didn’t notice any errors.","23486","I didn’t notice any errors."
"0dR2VHP6D53N",9,"survey-html-form","opaque","0dR2VHP6D53N","1: I confirm","1: I confirm","opaque","0_0",5,4,1,0.5,0.125,45,NA,"28586",NA
"0q2n6DmwTOgF",2,"survey-html-form","transp","0q2n6DmwTOgF","1: I confirm","1: I confirm","transp","1_1",50,2,1,0.25,0.125,53,"No, all that clear","8556","No, all that clear"
"1zRuwfzJzBtm",5,"survey-html-form","opaque","1zRuwfzJzBtm","1: I confirm","1: I confirm","opaque","05_05",0,6,4,0.75,0.5,49,NA,"26366",NA
"2cfjGQrHhZg7",9,"survey-html-form","opaque","2cfjGQrHhZg7","1: I confirm","1: I confirm","opaque","0_0",10,6,8,0.75,1,0,NA,"11549",NA
"3c0LaebGCC2S",5,"survey-html-form","opaque","3c0LaebGCC2S","1: I confirm","1: I confirm","opaque","05_05",96,7,6,0.875,0.75,65,"none","19632","none"
"47F2Wn58o6HQ",2,"survey-html-form","transp","47F2Wn58o6HQ","1: I confirm","1: I confirm","transp","1_1",30,0,8,0,1,20,NA,"15911",NA
"4TWVtj4fakgc",9,"survey-html-form","opaque","4TWVtj4fakgc","1: I confirm","1: I confirm","opaque","0_0",97,7,5,0.875,0.625,78,NA,"18634",NA
"5s7XL2e01Doa",10,"survey-html-form","transp","5s7XL2e01Doa","1: I confirm","1: I confirm","transp","0_0",50,4,0,0.5,0,50,NA,"14190",NA
"6N0vfu9PK3Ic",9,"survey-html-form","opaque","6N0vfu9PK3Ic","1: I confirm","1: I confirm","opaque","0_0",74,3,0,0.375,0,65,NA,"10456",NA
"6YCnwAuHr8yj",5,"survey-html-form","opaque","6YCnwAuHr8yj","1: I confirm","1: I confirm","opaque","05_05",72,2,0,0.25,0,58,NA,"10312",NA
"7EHFCRAg1fd0",6,"survey-html-form","transp","7EHFCRAg1fd0","1: I confirm","1: I confirm","transp","05_05",3,0,0,0,0,1,"No technical issues","100423","No technical issues"
"7Jpdd5UQkU6g",6,"survey-html-form","transp","7Jpdd5UQkU6g","1: I confirm","1: I confirm","transp","05_05",16,6,8,0.75,1,23,NA,"13198",NA
"7tQUDxUOE3PJ",6,"survey-html-form","transp","7tQUDxUOE3PJ","1: I confirm","1: I confirm","transp","05_05",0,6,6,0.75,0.75,0,"N/A","17199","N/A"
"8QhvNFPcPlXU",9,"survey-html-form","opaque","8QhvNFPcPlXU","1: I confirm","1: I confirm","opaque","0_0",50,6,4,0.75,0.5,74,"No errors to report.","53133","No errors to report."
"9H09OpmPdfwf",6,"survey-html-form","transp","9H09OpmPdfwf","1: I confirm","1: I confirm","transp","05_05",0,6,8,0.75,1,0,NA,"30011",NA
"9NJnwxOkIdGt",5,"survey-html-form","opaque","9NJnwxOkIdGt","1: I confirm","1: I confirm","opaque","05_05",50,4,8,0.5,1,50,"none","16257","none"
"9VCwnGkH2gmD",2,"survey-html-form","transp","9VCwnGkH2gmD","1: I confirm","1: I confirm","transp","1_1",45,7,4,0.875,0.5,57,"no errors","17861","no errors"
"A5CUPzgkDtvx",2,"survey-html-form","transp","A5CUPzgkDtvx","1: I confirm","1: I confirm","transp","1_1",10,6,7,0.75,0.875,7,"No technical issues faced at all.","27221","No technical issues faced at all."
"AkPldXPImPvE",2,"survey-html-form","transp","AkPldXPImPvE","1: I confirm","1: I confirm","transp","1_1",59,2,7,0.25,0.875,43,NA,"17632",NA
"BYRFty95su0d",6,"survey-html-form","transp","BYRFty95su0d","1: I confirm","1: I confirm","transp","05_05",41,6,6,0.75,0.75,50,NA,"7822",NA
"Bb6wpBOzw191",10,"survey-html-form","transp","Bb6wpBOzw191","1: I confirm","1: I confirm","transp","0_0",54,6,3,0.75,0.375,51,"On prolific the page was just buffering when I selected to start.  I had to refresh the page to open up the study.","24201","On prolific the page was just buffering when I selected to start.  I had to refresh the page to open up the study."
"CbpQjQaSFpmY",5,"survey-html-form","opaque","CbpQjQaSFpmY","1: I confirm","1: I confirm","opaque","05_05",71,6,8,0.75,1,27,"no errors","18545","no errors"
"DLodtkyRb2Ca",2,"survey-html-form","transp","DLodtkyRb2Ca","1: I confirm","1: I confirm","transp","1_1",53,3,7,0.375,0.875,55,NA,"55087",NA
"DPj4rmHCzPXL",10,"survey-html-form","transp","DPj4rmHCzPXL","1: I confirm","1: I confirm","transp","0_0",0,6,6,0.75,0.75,100,NA,"31501",NA
"Dit2NmigrHYq",5,"survey-html-form","opaque","Dit2NmigrHYq","1: I confirm","1: I confirm","opaque","05_05",100,0,0,0,0,100,NA,"13340",NA
"DyAUB1Dx64af",5,"survey-html-form","opaque","DyAUB1Dx64af","1: I confirm","1: I confirm","opaque","05_05",58,2,4,0.25,0.5,49,NA,"16621",NA
"EGrbZUPr1yMI",6,"survey-html-form","transp","EGrbZUPr1yMI","1: I confirm","1: I confirm","transp","05_05",50,4,4,0.5,0.5,50,"N/A","2947","N/A"
"ElanDuAbCQea",5,"survey-html-form","opaque","ElanDuAbCQea","1: I confirm","1: I confirm","opaque","05_05",64,6,7,0.75,0.875,67,NA,"16953",NA
"F9fOlpWb2qnU",5,"survey-html-form","opaque","F9fOlpWb2qnU","1: I confirm","1: I confirm","opaque","05_05",50,5,6,0.625,0.75,50,NA,"5629",NA
"IR8mU9z6RCWv",5,"survey-html-form","opaque","IR8mU9z6RCWv","1: I confirm","1: I confirm","opaque","05_05",94,8,4,1,0.5,92,NA,"47401",NA
"IWKHiMzmbJxV",9,"survey-html-form","opaque","IWKHiMzmbJxV","1: I confirm","1: I confirm","opaque","0_0",50,3,3,0.375,0.375,70,"No errors","10312","No errors"
"IyHltYdSOrXC",6,"survey-html-form","transp","IyHltYdSOrXC","1: I confirm","1: I confirm","transp","05_05",75,2,1,0.25,0.125,75,"n/a","57902","n/a"
"J8bp6RUa00Pp",10,"survey-html-form","transp","J8bp6RUa00Pp","1: I confirm","1: I confirm","transp","0_0",55,0,0,0,0,0,"no erros went well","14731","no erros went well"
"K1YpxmcOeO4n",1,"survey-html-form","opaque","K1YpxmcOeO4n","1: I confirm","1: I confirm","opaque","1_1",35,6,8,0.75,1,50,"No errors. It all worked very well. ","33141","No errors. It all worked very well. "
"K8kVQg9dfhDT",9,"survey-html-form","opaque","K8kVQg9dfhDT","1: I confirm","1: I confirm","opaque","0_0",68,4,3,0.5,0.375,69,NA,"9184",NA
"M0UaKIFUYq4v",2,"survey-html-form","transp","M0UaKIFUYq4v","1: I confirm","1: I confirm","transp","1_1",82,4,8,0.5,1,67,"all went well","32759","all went well"
"MKbMhT9xuzJu",9,"survey-html-form","opaque","MKbMhT9xuzJu","1: I confirm","1: I confirm","opaque","0_0",70,7,4,0.875,0.5,60,NA,"23553",NA
"MU9wnArCoG79",10,"survey-html-form","transp","MU9wnArCoG79","1: I confirm","1: I confirm","transp","0_0",0,6,1,0.75,0.125,29,NA,"13760",NA
"MbkYXw4axXoa",2,"survey-html-form","transp","MbkYXw4axXoa","1: I confirm","1: I confirm","transp","1_1",20,4,8,0.5,1,20,NA,"45886",NA
"NGRtOCOI0VZW",10,"survey-html-form","transp","NGRtOCOI0VZW","1: I confirm","1: I confirm","transp","0_0",3,8,5,1,0.625,18,"Nothing encountered","11129","Nothing encountered"
"NHWjyC0ZdbJi",5,"survey-html-form","opaque","NHWjyC0ZdbJi","1: I confirm","1: I confirm","opaque","05_05",51,6,7,0.75,0.875,49,NA,"10775",NA
"NJTWjy57ugN0",2,"survey-html-form","transp","NJTWjy57ugN0","1: I confirm","1: I confirm","transp","1_1",0,1,8,0.125,1,0,"There’s something blocking it from rolling further ","17035","There’s something blocking it from rolling further "
"NcknaRKMt6gP",10,"survey-html-form","transp","NcknaRKMt6gP","1: I confirm","1: I confirm","transp","0_0",34,8,6,1,0.75,34,NA,"41925",NA
"OYbC4qIOWYQw",5,"survey-html-form","opaque","OYbC4qIOWYQw","1: I confirm","1: I confirm","opaque","05_05",28,3,7,0.375,0.875,22,NA,"24848",NA
"OikfSUGIP5YE",5,"survey-html-form","opaque","OikfSUGIP5YE","1: I confirm","1: I confirm","opaque","05_05",50,6,8,0.75,1,50,NA,"13139",NA
"POh6exAbP6i4",10,"survey-html-form","transp","POh6exAbP6i4","1: I confirm","1: I confirm","transp","0_0",50,8,2,1,0.25,49,NA,"12713",NA
"PyDxIDDJ5HLu",1,"survey-html-form","opaque","PyDxIDDJ5HLu","1: I confirm","1: I confirm","opaque","1_1",49,0,8,0,1,100,"I didn't see any errors.","8023","I didn't see any errors."
"QAyTvN9f10ad",9,"survey-html-form","opaque","QAyTvN9f10ad","1: I confirm","1: I confirm","opaque","0_0",53,0,6,0,0.75,60,"No errors experienced. ","26027","No errors experienced. "
"QDfOcOHKWJ7p",1,"survey-html-form","opaque","QDfOcOHKWJ7p","1: I confirm","1: I confirm","opaque","1_1",0,4,8,0.5,1,0,NA,"23617",NA
"QmH1OHpxC76c",10,"survey-html-form","transp","QmH1OHpxC76c","1: I confirm","1: I confirm","transp","0_0",70,7,6,0.875,0.75,75,"NONE","74504","NONE"
"S8ucU9uorPUl",10,"survey-html-form","transp","S8ucU9uorPUl","1: I confirm","1: I confirm","transp","0_0",75,2,5,0.25,0.625,75,"No errors although I found it difficult to make my decisions.  I did my best, thank you.","37821","No errors although I found it difficult to make my decisions.  I did my best, thank you."
"SpVIPcKdRKbp",9,"survey-html-form","opaque","SpVIPcKdRKbp","1: I confirm","1: I confirm","opaque","0_0",57,4,4,0.5,0.5,50,NA,"7866",NA
"Ttzew5irHupd",10,"survey-html-form","transp","Ttzew5irHupd","1: I confirm","1: I confirm","transp","0_0",79,8,5,1,0.625,93,"no","19956","no"
"ULm5UZUBvlTv",10,"survey-html-form","transp","ULm5UZUBvlTv","1: I confirm","1: I confirm","transp","0_0",50,4,4,0.5,0.5,50,NA,"14711",NA
"UNeNNxVvDFpq",9,"survey-html-form","opaque","UNeNNxVvDFpq","1: I confirm","1: I confirm","opaque","0_0",91,7,6,0.875,0.75,65,"No issue, Thanks.","99257","No issue, Thanks."
"VklIvDHroq0u",9,"survey-html-form","opaque","VklIvDHroq0u","1: I confirm","1: I confirm","opaque","0_0",50,5,3,0.625,0.375,20,NA,"26116",NA
"VlyUcLZYOVMU",6,"survey-html-form","transp","VlyUcLZYOVMU","1: I confirm","1: I confirm","transp","05_05",11,3,6,0.375,0.75,8,"Not that I could see","12599","Not that I could see"
"VzF2PW7sEV5q",9,"survey-html-form","opaque","VzF2PW7sEV5q","1: I confirm","1: I confirm","opaque","0_0",23,6,5,0.75,0.625,16,NA,"20806",NA
"X5qSA8HfPFWz",2,"survey-html-form","transp","X5qSA8HfPFWz","1: I confirm","1: I confirm","transp","1_1",1,5,8,0.625,1,0,"None - I just got a bit confused during the task but understood towards the end ","15195","None - I just got a bit confused during the task but understood towards the end "
"XMImZh4lCHu7",10,"survey-html-form","transp","XMImZh4lCHu7","1: I confirm","1: I confirm","transp","0_0",15,5,5,0.625,0.625,15,"none","37583","none"
"YvR793ETVVCi",10,"survey-html-form","transp","YvR793ETVVCi","1: I confirm","1: I confirm","transp","0_0",0,2,3,0.25,0.375,50,NA,"46265",NA
"ZjfU5nRLh03E",9,"survey-html-form","opaque","ZjfU5nRLh03E","1: I confirm","1: I confirm","opaque","0_0",50,5,1,0.625,0.125,50,"none - although it was all quite confusing ","16910","none - although it was all quite confusing "
"ZkxOeM9SVniS",1,"survey-html-form","opaque","ZkxOeM9SVniS","1: I confirm","1: I confirm","opaque","1_1",64,0,8,0,1,68,NA,"15805",NA
"a1LKERkc4bYL",2,"survey-html-form","transp","a1LKERkc4bYL","1: I confirm","1: I confirm","transp","1_1",20,3,5,0.375,0.625,5,NA,"40507",NA
"aBRSN82XaA4r",6,"survey-html-form","transp","aBRSN82XaA4r","1: I confirm","1: I confirm","transp","05_05",0,5,8,0.625,1,0,NA,"19542",NA
"bv2Pj7cDsvO2",9,"survey-html-form","opaque","bv2Pj7cDsvO2","1: I confirm","1: I confirm","opaque","0_0",50,0,4,0,0.5,55,NA,"37838",NA
"c9XFybBG6Ipm",6,"survey-html-form","transp","c9XFybBG6Ipm","1: I confirm","1: I confirm","transp","05_05",80,6,6,0.75,0.75,82,NA,"34868",NA
"cXvQPbXhwlHF",6,"survey-html-form","transp","cXvQPbXhwlHF","1: I confirm","1: I confirm","transp","05_05",100,1,5,0.125,0.625,99,"NONE","18368","NONE"
"dLRvkVbUVK2Y",10,"survey-html-form","transp","dLRvkVbUVK2Y","1: I confirm","1: I confirm","transp","0_0",13,8,3,1,0.375,21,NA,"29924",NA
"dn5fX69VBTq6",9,"survey-html-form","opaque","dn5fX69VBTq6","1: I confirm","1: I confirm","opaque","0_0",22,5,7,0.625,0.875,49,NA,"27545",NA
"eQmb4v7XofZf",6,"survey-html-form","transp","eQmb4v7XofZf","1: I confirm","1: I confirm","transp","05_05",39,6,7,0.75,0.875,22,NA,"148081",NA
"fYGgFV5uCQUK",10,"survey-html-form","transp","fYGgFV5uCQUK","1: I confirm","1: I confirm","transp","0_0",12,4,4,0.5,0.5,9,NA,"24774",NA
"fq7ZGyOAKSzu",5,"survey-html-form","opaque","fq7ZGyOAKSzu","1: I confirm","1: I confirm","opaque","05_05",90,6,6,0.75,0.75,70,"No errors","14446","No errors"
"fwABAFQmLiE0",5,"survey-html-form","opaque","fwABAFQmLiE0","1: I confirm","1: I confirm","opaque","05_05",50,7,6,0.875,0.75,50,NA,"12653",NA
"gdiT4NU8QBUU",10,"survey-html-form","transp","gdiT4NU8QBUU","1: I confirm","1: I confirm","transp","0_0",14,5,6,0.625,0.75,54,NA,"22222",NA
"hDrtgguyRdYQ",5,"survey-html-form","opaque","hDrtgguyRdYQ","1: I confirm","1: I confirm","opaque","05_05",37,6,8,0.75,1,43,NA,"21346",NA
"hHAW86P4h9fN",9,"survey-html-form","opaque","hHAW86P4h9fN","1: I confirm","1: I confirm","opaque","0_0",64,3,2,0.375,0.25,74,NA,"15898",NA
"hyMIWWWAD9qq",10,"survey-html-form","transp","hyMIWWWAD9qq","1: I confirm","1: I confirm","transp","0_0",29,6,8,0.75,1,4,NA,"31733",NA
"jP691Am5xcXB",6,"survey-html-form","transp","jP691Am5xcXB","1: I confirm","1: I confirm","transp","05_05",0,5,8,0.625,1,0,"I did not have or notice any errors.  Everything ran smooth!","24294","I did not have or notice any errors.  Everything ran smooth!"
"k4ukMOgHKh6z",5,"survey-html-form","opaque","k4ukMOgHKh6z","1: I confirm","1: I confirm","opaque","05_05",80,6,8,0.75,1,12,NA,"15094",NA
"ko1KXJOHMLPs",10,"survey-html-form","transp","ko1KXJOHMLPs","1: I confirm","1: I confirm","transp","0_0",66,0,1,0,0.125,68,"none applicable
","7739","none applicable
"
"kpZC4WMMwa4Q",10,"survey-html-form","transp","kpZC4WMMwa4Q","1: I confirm","1: I confirm","transp","0_0",13,0,0,0,0,7,"I didn't come accross any errors ","23912","I didn't come accross any errors "
"lZdAthEGFLYa",10,"survey-html-form","transp","lZdAthEGFLYa","1: I confirm","1: I confirm","transp","0_0",0,6,8,0.75,1,0,NA,"11806",NA
"ocA8N3bn0lwA",5,"survey-html-form","opaque","ocA8N3bn0lwA","1: I confirm","1: I confirm","opaque","05_05",84,6,5,0.75,0.625,76,NA,"27457",NA
"pNXLsaqRquCa",10,"survey-html-form","transp","pNXLsaqRquCa","1: I confirm","1: I confirm","transp","0_0",0,7,4,0.875,0.5,1,NA,"36878",NA
"rmYskqGLCTha",5,"survey-html-form","opaque","rmYskqGLCTha","1: I confirm","1: I confirm","opaque","05_05",0,4,3,0.5,0.375,0,"No errors! Though I found it hard!","7912","No errors! Though I found it hard!"
"rr8dhIM94Lue",6,"survey-html-form","transp","rr8dhIM94Lue","1: I confirm","1: I confirm","transp","05_05",26,3,2,0.375,0.25,65,NA,"14243",NA
"uzMjWxyEE52k",2,"survey-html-form","transp","uzMjWxyEE52k","1: I confirm","1: I confirm","transp","1_1",14,3,7,0.375,0.875,15,NA,"12731",NA
"vARI8qy2IrKs",2,"survey-html-form","transp","vARI8qy2IrKs","1: I confirm","1: I confirm","transp","1_1",50,2,7,0.25,0.875,50,"none","13588","none"
"vH3IER8ZIWj0",5,"survey-html-form","opaque","vH3IER8ZIWj0","1: I confirm","1: I confirm","opaque","05_05",66,4,6,0.5,0.75,25,NA,"11680",NA
"vRsU3BUVNEhx",10,"survey-html-form","transp","vRsU3BUVNEhx","1: I confirm","1: I confirm","transp","0_0",0,4,8,0.5,1,0,NA,"4979",NA
"w4Bf1Rt79SSe",10,"survey-html-form","transp","w4Bf1Rt79SSe","1: I confirm","1: I confirm","transp","0_0",16,6,8,0.75,1,0,"I think, because the yellow ball was a bit away from the ""foot"" of the device, I initially got confused in thinking that the device was showing the ball rolling away from the foot - I think an example of what the device looked like when causing one of the balls to roll, prior to the questions being asked, would have made things clearer for me. ","13976","I think, because the yellow ball was a bit away from the ""foot"" of the device, I initially got confused in thinking that the device was showing the ball rolling away from the foot - I think an example of what the device looked like when causing one of the balls to roll, prior to the questions being asked, would have made things clearer for me. "
"wHI6pR7iUmh5",10,"survey-html-form","transp","wHI6pR7iUmh5","1: I confirm","1: I confirm","transp","0_0",20,4,8,0.5,1,23,"no comment","18660","no comment"
"xCg7FFbIILuO",6,"survey-html-form","transp","xCg7FFbIILuO","1: I confirm","1: I confirm","transp","05_05",5,6,6,0.75,0.75,9,NA,"10710",NA
"xSr9ct0ShjrX",10,"survey-html-form","transp","xSr9ct0ShjrX","1: I confirm","1: I confirm","transp","0_0",0,7,5,0.875,0.625,0,NA,"9580",NA
"y3ZVJv1Avqwm",6,"survey-html-form","transp","y3ZVJv1Avqwm","1: I confirm","1: I confirm","transp","05_05",0,6,8,0.75,1,0,"none except the first two goes you did not know if the yellow ball was there","42142","none except the first two goes you did not know if the yellow ball was there"
"y9pExofeJ8Xv",2,"survey-html-form","transp","y9pExofeJ8Xv","1: I confirm","1: I confirm","transp","1_1",51,2,3,0.25,0.375,50,"none but I found it confusing","9541","none but I found it confusing"
"yTL3JjkKqiKB",6,"survey-html-form","transp","yTL3JjkKqiKB","1: I confirm","1: I confirm","transp","05_05",0,8,6,1,0.75,0,"na","9127","na"
"yckDsfZj6DHj",6,"survey-html-form","transp","yckDsfZj6DHj","1: I confirm","1: I confirm","transp","05_05",0,5,7,0.625,0.875,0,NA,"21558",NA
"z2xDnHBSPfuX",6,"survey-html-form","transp","z2xDnHBSPfuX","1: I confirm","1: I confirm","transp","05_05",0,6,8,0.75,1,6,NA,"17151",NA
"zUcaat1d17mg",10,"survey-html-form","transp","zUcaat1d17mg","1: I confirm","1: I confirm","transp","0_0",50,7,2,0.875,0.25,45,"I did not expereince any challange it was clear and abservable","28726","I did not expereince any challange it was clear and abservable"
"ExSpGSvFiduH",1,"survey-html-form","opaque","ExSpGSvFiduH","2: I do not confirm","1: I confirm","opaque","1_1",85,8,8,1,1,89,NA,"11992",NA
